"","StartDate","EndDate","Status","IPAddress","Progress","Duration..in.seconds.","Finished","RecordedDate","ResponseId","RecipientLastName","RecipientFirstName","RecipientEmail","ExternalReference","LocationLatitude","LocationLongitude","DistributionChannel","UserLanguage","Q15","Q16","Q6_1","Q6_2","Q6_3","Q3","Q5","Q7","Q8","Q9","Q10","Q10_4_TEXT","Q11","Q11...Topics","Q11...Parent.Topics","sender","sender_type","sender_id","ended_on","duration","time_run","time_render","time_show","time_end","time_commit","timestamp","time_switch","ID","timeforkeypress","pintyped","attempttime","numbackspace","pincorrect","numattempts","timeforcorrectpin","numincorrect","totalerror","...56","timestamps","xpos","ypos","mouseouts","response","response_action","meta.labjs_version","meta.location","meta.userAgent","meta.platform","meta.language","meta.locale","meta.timeZone","meta.timezoneOffset","meta.screen_width","meta.screen_height","meta.scroll_width","meta.scroll_height","meta.window_innerWidth","meta.window_innerHeight","meta.devicePixelRatio","meta.labjs_build.flavor","meta.labjs_build.commit","mouseEnvironment..data.mt.","...81"
"1",2021-01-12 14:01:57,2021-01-12 14:10:18,"IP Address","74.97.181.123",100,500,TRUE,2021-01-12 14:10:18,"R_28GmYZS43LZ6w3u",NA,NA,NA,NA,41.6528015136719,-71.4697036743164,"anonymous","EN",NA,NA,"Slightly Liked","Moderately liked",NA,NA,NA,NA,NA,NA,NA,NA,NA,NA,NA,"Intro","html.Page","0","form submission",5226.17399999934,349.779999989551,363.907,380.491,5606.66499999934,5606.97999998229,"2021-01-12T21:02:04.200Z",5612.135,NA,"","","","",NA,"","","","",NA,"","","","",NA,NA,"20.1.1","https://angry-archimedes-fbdcfd.netlify.app/","Mozilla/5.0 (Windows NT 10.0; Win64; x64) AppleWebKit/537.36 (KHTML, like Gecko) Chrome/87.0.4280.88 Safari/537.36","Win32","en-US","en-US","America/New_York",300,1536,864,1536,706,1536,754,1.25,"production","c48ac4ada3769e8d34489594ab03097d5f256ac7","",NA
"2",2021-01-12 14:01:57,2021-01-12 14:10:18,"IP Address","74.97.181.123",100,500,TRUE,2021-01-12 14:10:18,"R_28GmYZS43LZ6w3u",NA,NA,NA,NA,41.6528015136719,-71.4697036743164,"anonymous","EN",NA,NA,"Slightly Liked","Moderately liked",NA,NA,NA,NA,NA,NA,NA,NA,NA,NA,NA,"Page","html.Page","1","form submission",4055.24499999896,5607.20499997842,5595.447,5612.135,9667.37999999896,9667.54500000388,"2021-01-12T21:02:08.260Z",9677.385,"0001","","","","",NA,"","","","",NA,"","","","",NA,NA,NA,NA,NA,NA,NA,NA,NA,NA,NA,NA,NA,NA,NA,NA,NA,NA,NA,"",NA
"3",2021-01-12 14:01:57,2021-01-12 14:10:18,"IP Address","74.97.181.123",100,500,TRUE,2021-01-12 14:10:18,"R_28GmYZS43LZ6w3u",NA,NA,NA,NA,41.6528015136719,-71.4697036743164,"anonymous","EN",NA,NA,"Slightly Liked","Moderately liked",NA,NA,NA,NA,NA,NA,NA,NA,NA,NA,NA,"Index","html.Page","2_0","form submission",32648.7749999969,9667.71999999764,9660.798,9677.385,42326.1599999969,42326.9149999833,"2021-01-12T21:02:40.920Z",42333.116,NA,"","","","","yes,yes,yes,yes,yes,yes,yes,yes,","","","","","","","","","",NA,NA,NA,NA,NA,NA,NA,NA,NA,NA,NA,NA,NA,NA,NA,NA,NA,NA,NA,"",NA
"4",2021-01-12 14:01:57,2021-01-12 14:10:18,"IP Address","74.97.181.123",100,500,TRUE,2021-01-12 14:10:18,"R_28GmYZS43LZ6w3u",NA,NA,NA,NA,41.6528015136719,-71.4697036743164,"anonymous","EN",NA,NA,"Slightly Liked","Moderately liked",NA,NA,NA,NA,NA,NA,NA,NA,NA,NA,NA,"screen_two.html","html.Page","2_1","response",33072.664000001,42330.9899999877,42316.497,42333.116,75405.780000001,75408.0949999916,"2021-01-12T21:03:14.000Z",75421.967,NA,"","","","","yes,yes,yes,yes,yes,yes,yes,yes,","","","","",NA,"","","","","continue","click button",NA,NA,NA,NA,NA,NA,NA,NA,NA,NA,NA,NA,NA,NA,NA,NA,NA,"",NA
"5",2021-01-12 14:01:57,2021-01-12 14:10:18,"IP Address","74.97.181.123",100,500,TRUE,2021-01-12 14:10:18,"R_28GmYZS43LZ6w3u",NA,NA,NA,NA,41.6528015136719,-71.4697036743164,"anonymous","EN",NA,NA,"Slightly Liked","Moderately liked",NA,NA,NA,NA,NA,NA,NA,NA,NA,NA,NA,"screen_one.html","html.Page","2_2","response",40325.4779999863,75410.3049999976,75405.422,75421.967,115747.444999986,115748.124999984,"2021-01-12T21:03:54.340Z",115775.199,NA,"","","","","yes,yes,yes,yes,yes,yes,yes,yes,","","","","",NA,"","","","","continue","click button",NA,NA,NA,NA,NA,NA,NA,NA,NA,NA,NA,NA,NA,NA,NA,NA,NA,"",NA
"6",2021-01-12 14:01:57,2021-01-12 14:10:18,"IP Address","74.97.181.123",100,500,TRUE,2021-01-12 14:10:18,"R_28GmYZS43LZ6w3u",NA,NA,NA,NA,41.6528015136719,-71.4697036743164,"anonymous","EN",NA,NA,"Slightly Liked","Moderately liked",NA,NA,NA,NA,NA,NA,NA,NA,NA,NA,NA,"Randomize","flow.Sequence","2","completion",106070.059999986,9667.6799999841,9660.798,9677.385,115747.444999986,115750.184999983,"2021-01-12T21:03:54.343Z",115775.199,NA,"","","","",NA,"","","","",NA,"","","","",NA,NA,NA,NA,NA,NA,NA,NA,NA,NA,NA,NA,NA,NA,NA,NA,NA,NA,NA,"",NA
"7",2021-01-12 14:01:57,2021-01-12 14:10:18,"IP Address","74.97.181.123",100,500,TRUE,2021-01-12 14:10:18,"R_28GmYZS43LZ6w3u",NA,NA,NA,NA,41.6528015136719,-71.4697036743164,"anonymous","EN",NA,NA,"Slightly Liked","Moderately liked",NA,NA,NA,NA,NA,NA,NA,NA,NA,NA,NA,"root","flow.Sequence",NA,"completion",115366.953999986,349.719999998342,363.907,380.491,115747.444999986,115750.425000006,"2021-01-12T21:03:54.343Z",115775.199,NA,"","","","",NA,"","","","",NA,"","","","",NA,NA,NA,NA,NA,NA,NA,NA,NA,NA,NA,NA,NA,NA,NA,NA,NA,NA,NA,"",NA
"8",2021-01-12 14:10:36,2021-01-12 14:12:55,"IP Address","74.97.181.123",100,138,TRUE,2021-01-12 14:12:55,"R_3hgpzYXdP148rkh",NA,NA,NA,NA,41.6528015136719,-71.4697036743164,"anonymous","EN",NA,NA,"Neither liked nor disliked","Moderately disliked","Moderately liked",NA,NA,NA,NA,NA,NA,NA,NA,NA,NA,"Intro","html.Page","0","form submission",1585.20600000273,156.225000013364,164.031,180.599,1765.80500000273,1766.00500001223,"2021-01-12T21:10:39.185Z",1780.144,NA,"","","","",NA,"","","","",NA,"","","","",NA,NA,"20.1.1","https://angry-archimedes-fbdcfd.netlify.app/","Mozilla/5.0 (Windows NT 10.0; Win64; x64) AppleWebKit/537.36 (KHTML, like Gecko) Chrome/87.0.4280.88 Safari/537.36","Win32","en-US","en-US","America/New_York",300,1536,864,1536,706,1536,754,1.25,"production","c48ac4ada3769e8d34489594ab03097d5f256ac7","",NA
"9",2021-01-12 14:10:36,2021-01-12 14:12:55,"IP Address","74.97.181.123",100,138,TRUE,2021-01-12 14:12:55,"R_3hgpzYXdP148rkh",NA,NA,NA,NA,41.6528015136719,-71.4697036743164,"anonymous","EN",NA,NA,"Neither liked nor disliked","Moderately disliked","Moderately liked",NA,NA,NA,NA,NA,NA,NA,NA,NA,NA,"Page","html.Page","1","form submission",3959.80600001742,1766.20000001276,1763.624,1780.144,5739.95000001742,5740.11000001337,"2021-01-12T21:10:43.159Z",5745.481,"0001","","","","",NA,"","","","",NA,"","","","",NA,NA,NA,NA,NA,NA,NA,NA,NA,NA,NA,NA,NA,NA,NA,NA,NA,NA,NA,"",NA
"10",2021-01-12 14:10:36,2021-01-12 14:12:55,"IP Address","74.97.181.123",100,138,TRUE,2021-01-12 14:12:55,"R_3hgpzYXdP148rkh",NA,NA,NA,NA,41.6528015136719,-71.4697036743164,"anonymous","EN",NA,NA,"Neither liked nor disliked","Moderately disliked","Moderately liked",NA,NA,NA,NA,NA,NA,NA,NA,NA,NA,"Index","html.Page","2_0","form submission",38907.9990000081,5740.33500000951,5728.94,5745.481,44653.4800000081,44654.4050000084,"2021-01-12T21:11:22.073Z",44682.432,NA,"","","","","yes,yes,yes,yes,yes,no,yes,yes,yes,","","","","","","","","","",NA,NA,NA,NA,NA,NA,NA,NA,NA,NA,NA,NA,NA,NA,NA,NA,NA,NA,NA,"",NA
"11",2021-01-12 14:10:36,2021-01-12 14:12:55,"IP Address","74.97.181.123",100,138,TRUE,2021-01-12 14:12:55,"R_3hgpzYXdP148rkh",NA,NA,NA,NA,41.6528015136719,-71.4697036743164,"anonymous","EN",NA,NA,"Neither liked nor disliked","Moderately disliked","Moderately liked",NA,NA,NA,NA,NA,NA,NA,NA,NA,NA,"screen_two.html","html.Page","2_1","response",43538.5879999972,44658.7250000157,44665.811,44682.432,88221.0199999972,88223.4250000038,"2021-01-12T21:12:05.642Z",88251.222,NA,"","","","","yes,yes,yes,yes,yes,yes,yes,yes,","","","","",NA,"","","","","continue","click button",NA,NA,NA,NA,NA,NA,NA,NA,NA,NA,NA,NA,NA,NA,NA,NA,NA,"",NA
"12",2021-01-12 14:10:36,2021-01-12 14:12:55,"IP Address","74.97.181.123",100,138,TRUE,2021-01-12 14:12:55,"R_3hgpzYXdP148rkh",NA,NA,NA,NA,41.6528015136719,-71.4697036743164,"anonymous","EN",NA,NA,"Neither liked nor disliked","Moderately disliked","Moderately liked",NA,NA,NA,NA,NA,NA,NA,NA,NA,NA,"screen_one.html","html.Page","2_2","response",37020.3280000049,88226.1149999977,88234.51,88251.222,125271.550000005,125272.410000005,"2021-01-12T21:12:42.691Z",125288.984,NA,"","","","","yes,no,no,yes,yes,yes,yes,yes,yes,yes,","","","","",NA,"","","","","continue","click button",NA,NA,NA,NA,NA,NA,NA,NA,NA,NA,NA,NA,NA,NA,NA,NA,NA,"",NA
"13",2021-01-12 14:10:36,2021-01-12 14:12:55,"IP Address","74.97.181.123",100,138,TRUE,2021-01-12 14:12:55,"R_3hgpzYXdP148rkh",NA,NA,NA,NA,41.6528015136719,-71.4697036743164,"anonymous","EN",NA,NA,"Neither liked nor disliked","Moderately disliked","Moderately liked",NA,NA,NA,NA,NA,NA,NA,NA,NA,NA,"Randomize","flow.Sequence","2","completion",119526.069000005,5740.28500000713,5728.94,5745.481,125271.550000005,125274.89500001,"2021-01-12T21:12:42.694Z",125288.984,NA,"","","","",NA,"","","","",NA,"","","","",NA,NA,NA,NA,NA,NA,NA,NA,NA,NA,NA,NA,NA,NA,NA,NA,NA,NA,NA,"",NA
"14",2021-01-12 14:10:36,2021-01-12 14:12:55,"IP Address","74.97.181.123",100,138,TRUE,2021-01-12 14:12:55,"R_3hgpzYXdP148rkh",NA,NA,NA,NA,41.6528015136719,-71.4697036743164,"anonymous","EN",NA,NA,"Neither liked nor disliked","Moderately disliked","Moderately liked",NA,NA,NA,NA,NA,NA,NA,NA,NA,NA,"root","flow.Sequence",NA,"completion",125090.951000005,156.130000017583,164.031,180.599,125271.550000005,125275.120000006,"2021-01-12T21:12:42.694Z",125288.984,NA,"","","","",NA,"","","","",NA,"","","","",NA,NA,NA,NA,NA,NA,NA,NA,NA,NA,NA,NA,NA,NA,NA,NA,NA,NA,NA,"",NA
"15",2021-01-12 14:21:01,2021-01-12 14:24:10,"IP Address","68.14.11.44",100,188,TRUE,2021-01-12 14:24:10,"R_RICgWmQeJBSiYkV",NA,NA,NA,NA,41.8233032226562,-71.4410018920898,"anonymous","EN",NA,NA,"Neither liked nor disliked","Strongly Liked","Strongly disliked",NA,NA,NA,"2x5 layout","17 or younger","Woman",NA,NA,NA,NA,"Intro","html.Page","0","form submission",7342.56,1754,1766.74,1783.44,9126,9127,"2021-01-12T21:21:11.092Z",9138.62,NA,"","","","",NA,"","","","",NA,"","","","",NA,NA,"20.1.1","https://angry-archimedes-fbdcfd.netlify.app/","Mozilla/5.0 (Macintosh; Intel Mac OS X 10.14; rv:84.0) Gecko/20100101 Firefox/84.0","MacIntel","en-US","en-US","America/New_York",300,1680,1050,1551,686,1551,734,2,"production","c48ac4ada3769e8d34489594ab03097d5f256ac7","",NA
"16",2021-01-12 14:21:01,2021-01-12 14:24:10,"IP Address","68.14.11.44",100,188,TRUE,2021-01-12 14:24:10,"R_RICgWmQeJBSiYkV",NA,NA,NA,NA,41.8233032226562,-71.4410018920898,"anonymous","EN",NA,NA,"Neither liked nor disliked","Strongly Liked","Strongly disliked",NA,NA,NA,"2x5 layout","17 or younger","Woman",NA,NA,NA,NA,"Page","html.Page","1","form submission",2820.38,9127,9121.56,9138.62,11959,11959,"2021-01-12T21:21:13.924Z",11990.7,"0001","","","","",NA,"","","","",NA,"","","","",NA,NA,NA,NA,NA,NA,NA,NA,NA,NA,NA,NA,NA,NA,NA,NA,NA,NA,NA,"",NA
"17",2021-01-12 14:21:01,2021-01-12 14:24:10,"IP Address","68.14.11.44",100,188,TRUE,2021-01-12 14:24:10,"R_RICgWmQeJBSiYkV",NA,NA,NA,NA,41.8233032226562,-71.4410018920898,"anonymous","EN",NA,NA,"Neither liked nor disliked","Strongly Liked","Strongly disliked",NA,NA,NA,"2x5 layout","17 or younger","Woman",NA,NA,NA,NA,"screen_two.html","html.Page","2_0","response",57203.3,11959,11974.64,11990.7,69194,69198,"2021-01-12T21:22:11.163Z",69211.78,NA,"","","","","yes,yes,yes,yes,yes,yes,yes,yes,","","","","",NA,"","","","","continue","click button",NA,NA,NA,NA,NA,NA,NA,NA,NA,NA,NA,NA,NA,NA,NA,NA,NA,"",NA
"18",2021-01-12 14:21:01,2021-01-12 14:24:10,"IP Address","68.14.11.44",100,188,TRUE,2021-01-12 14:24:10,"R_RICgWmQeJBSiYkV",NA,NA,NA,NA,41.8233032226562,-71.4410018920898,"anonymous","EN",NA,NA,"Neither liked nor disliked","Strongly Liked","Strongly disliked",NA,NA,NA,"2x5 layout","17 or younger","Woman",NA,NA,NA,NA,"screen_one.html","html.Page","2_1","response",39764.22,69201,69195.48,69211.78,108976,108977,"2021-01-12T21:22:50.943Z",109005.34,NA,"","","","","yes,yes,yes,yes,yes,yes,yes,yes,","","","","",NA,"","","","","continue","click button",NA,NA,NA,NA,NA,NA,NA,NA,NA,NA,NA,NA,NA,NA,NA,NA,NA,"",NA
"19",2021-01-12 14:21:01,2021-01-12 14:24:10,"IP Address","68.14.11.44",100,188,TRUE,2021-01-12 14:24:10,"R_RICgWmQeJBSiYkV",NA,NA,NA,NA,41.8233032226562,-71.4410018920898,"anonymous","EN",NA,NA,"Neither liked nor disliked","Strongly Liked","Strongly disliked",NA,NA,NA,"2x5 layout","17 or younger","Woman",NA,NA,NA,NA,"Index","html.Page","2_2","form submission",50816.66,108978,108987.68,109005.34,159822,159822,"2021-01-12T21:23:41.787Z",159838.46,NA,"","","","","yes,yes,yes,yes,yes,yes,yes,yes,","","","","",NA,"","","","",NA,NA,NA,NA,NA,NA,NA,NA,NA,NA,NA,NA,NA,NA,NA,NA,NA,NA,NA,"",""
"20",2021-01-12 14:21:01,2021-01-12 14:24:10,"IP Address","68.14.11.44",100,188,TRUE,2021-01-12 14:24:10,"R_RICgWmQeJBSiYkV",NA,NA,NA,NA,41.8233032226562,-71.4410018920898,"anonymous","EN",NA,NA,"Neither liked nor disliked","Strongly Liked","Strongly disliked",NA,NA,NA,"2x5 layout","17 or younger","Woman",NA,NA,NA,NA,"Randomize","flow.Sequence","2","completion",147831.3,11959,11974.64,11990.7,159822,159823,"2021-01-12T21:23:41.789Z",159838.46,NA,"","","","",NA,"","","","",NA,"","","","",NA,NA,NA,NA,NA,NA,NA,NA,NA,NA,NA,NA,NA,NA,NA,NA,NA,NA,NA,"",NA
"21",2021-01-12 14:21:01,2021-01-12 14:24:10,"IP Address","68.14.11.44",100,188,TRUE,2021-01-12 14:24:10,"R_RICgWmQeJBSiYkV",NA,NA,NA,NA,41.8233032226562,-71.4410018920898,"anonymous","EN",NA,NA,"Neither liked nor disliked","Strongly Liked","Strongly disliked",NA,NA,NA,"2x5 layout","17 or younger","Woman",NA,NA,NA,NA,"root","flow.Sequence",NA,"completion",158038.56,1754,1766.74,1783.44,159822,159824,"2021-01-12T21:23:41.789Z",159838.46,NA,"","","","",NA,"","","","",NA,"","","","",NA,NA,NA,NA,NA,NA,NA,NA,NA,NA,NA,NA,NA,NA,NA,NA,NA,NA,NA,"",NA
"22",2021-01-12 14:30:00,2021-01-13 13:47:10,"IP Address","74.97.181.123",100,83829,TRUE,2021-01-13 13:47:12,"R_DP5VNIx2sbAsD7z",NA,NA,NA,NA,41.6528015136719,-71.4697036743164,"anonymous","EN",NA,NA,"Slightly disliked",NA,NA,"adf","asdf",NA,NA,NA,NA,NA,NA,NA,NA,"Intro","html.Page","0","form submission",3878.32899998888,249.940000008792,258.816,275.481,4153.80999998888,4154.17500000331,"2021-01-12T21:30:05.622Z",4174.12,NA,"","","","",NA,"","","","",NA,"","","","",NA,NA,"20.1.1","https://angry-archimedes-fbdcfd.netlify.app/","Mozilla/5.0 (Windows NT 10.0; Win64; x64) AppleWebKit/537.36 (KHTML, like Gecko) Chrome/87.0.4280.88 Safari/537.36","Win32","en-US","en-US","America/New_York",300,1536,864,1536,706,1536,754,1.25,"production","c48ac4ada3769e8d34489594ab03097d5f256ac7","",NA
"23",2021-01-12 14:30:00,2021-01-13 13:47:10,"IP Address","74.97.181.123",100,83829,TRUE,2021-01-13 13:47:12,"R_DP5VNIx2sbAsD7z",NA,NA,NA,NA,41.6528015136719,-71.4697036743164,"anonymous","EN",NA,NA,"Slightly disliked",NA,NA,"adf","asdf",NA,NA,NA,NA,NA,NA,NA,NA,"Page","html.Page","1","form submission",3077.54999999783,4154.41499999724,4157.48,4174.12,7251.66999999783,7251.85000000056,"2021-01-12T21:30:08.719Z",7273.141,"0001","","","","",NA,"","","","",NA,"","","","",NA,NA,NA,NA,NA,NA,NA,NA,NA,NA,NA,NA,NA,NA,NA,NA,NA,NA,NA,"",NA
"24",2021-01-12 14:30:00,2021-01-13 13:47:10,"IP Address","74.97.181.123",100,83829,TRUE,2021-01-13 13:47:12,"R_DP5VNIx2sbAsD7z",NA,NA,NA,NA,41.6528015136719,-71.4697036743164,"anonymous","EN",NA,NA,"Slightly disliked",NA,NA,"adf","asdf",NA,NA,NA,NA,NA,NA,NA,NA,"screen_two.html","html.Page","2_0","response",36066.4039999953,7252.1199999901,7239.858,7273.141,43339.5449999953,43341.6300000099,"2021-01-12T21:30:44.809Z",43344.416,NA,"","","","","yes,yes,yes,yes,yes,yes,yes,yes,","","","","",NA,"","","","","continue","click button",NA,NA,NA,NA,NA,NA,NA,NA,NA,NA,NA,NA,NA,NA,NA,NA,NA,"",NA
"25",2021-01-12 14:30:00,2021-01-13 13:47:10,"IP Address","74.97.181.123",100,83829,TRUE,2021-01-13 13:47:12,"R_DP5VNIx2sbAsD7z",NA,NA,NA,NA,41.6528015136719,-71.4697036743164,"anonymous","EN",NA,NA,"Slightly disliked",NA,NA,"adf","asdf",NA,NA,NA,NA,NA,NA,NA,NA,"screen_one.html","html.Page","2_1","response",33292.5990000148,43346.2949999957,43327.713,43344.416,76637.0150000148,76637.8949999926,"2021-01-12T21:31:18.106Z",76649.889,NA,"","","","","yes,yes,yes,yes,yes,yes,yes,yes,","","","","",NA,"","","","","continue","click button",NA,NA,NA,NA,NA,NA,NA,NA,NA,NA,NA,NA,NA,NA,NA,NA,NA,"",NA
"26",2021-01-12 14:30:00,2021-01-13 13:47:10,"IP Address","74.97.181.123",100,83829,TRUE,2021-01-13 13:47:12,"R_DP5VNIx2sbAsD7z",NA,NA,NA,NA,41.6528015136719,-71.4697036743164,"anonymous","EN",NA,NA,"Slightly disliked",NA,NA,"adf","asdf",NA,NA,NA,NA,NA,NA,NA,NA,"Index","html.Page","2_2","form submission",34847.6310000044,76640.1450000121,76633.331,76649.889,111497.520000004,111498.049999995,"2021-01-12T21:31:52.966Z",111521.636,NA,"","","","","yes,yes,yes,yes,yes,yes,yes,yes,","","","","",NA,"","","","",NA,NA,NA,NA,NA,NA,NA,NA,NA,NA,NA,NA,NA,NA,NA,NA,NA,NA,NA,"",""
"27",2021-01-12 14:30:00,2021-01-13 13:47:10,"IP Address","74.97.181.123",100,83829,TRUE,2021-01-13 13:47:12,"R_DP5VNIx2sbAsD7z",NA,NA,NA,NA,41.6528015136719,-71.4697036743164,"anonymous","EN",NA,NA,"Slightly disliked",NA,NA,"adf","asdf",NA,NA,NA,NA,NA,NA,NA,NA,"Randomize","flow.Sequence","2","completion",104224.379000004,7252.06999998773,7239.858,7273.141,111497.520000004,111498.909999995,"2021-01-12T21:31:52.967Z",111521.636,NA,"","","","",NA,"","","","",NA,"","","","",NA,NA,NA,NA,NA,NA,NA,NA,NA,NA,NA,NA,NA,NA,NA,NA,NA,NA,NA,"",NA
"28",2021-01-12 14:30:00,2021-01-13 13:47:10,"IP Address","74.97.181.123",100,83829,TRUE,2021-01-13 13:47:12,"R_DP5VNIx2sbAsD7z",NA,NA,NA,NA,41.6528015136719,-71.4697036743164,"anonymous","EN",NA,NA,"Slightly disliked",NA,NA,"adf","asdf",NA,NA,NA,NA,NA,NA,NA,NA,"root","flow.Sequence",NA,"completion",111222.039000004,249.775000003865,258.816,275.481,111497.520000004,111499.119999993,"2021-01-12T21:31:52.967Z",111521.636,NA,"","","","",NA,"","","","",NA,"","","","",NA,NA,NA,NA,NA,NA,NA,NA,NA,NA,NA,NA,NA,NA,NA,NA,NA,NA,NA,"",NA
"29",2021-01-22 09:27:19,2021-01-22 09:29:40,"IP Address","74.97.181.123",100,141,TRUE,2021-01-22 09:29:40,"R_DAdT5WfvTGQilLb",NA,NA,NA,NA,41.6528015136719,-71.4697036743164,"anonymous","EN",NA,NA,NA,NA,NA,NA,NA,NA,NA,NA,NA,NA,NA,NA,NA,"Intro","html.Page","0","form submission",1868.72999994334,555.924999993294,555.21,571.805,2440.53499994334,2440.91499992646,"2021-01-22T16:27:22.675Z",2454.859,NA,"","","","",NA,"","","","",NA,"","","","",NA,NA,"20.1.1","https://goofy-beaver-0812ce.netlify.app/","Mozilla/5.0 (Windows NT 10.0; Win64; x64) AppleWebKit/537.36 (KHTML, like Gecko) Chrome/87.0.4280.141 Safari/537.36","Win32","en-US","en-US","America/New_York",300,1536,864,1536,650,1536,698,1.25,"production","cd5695f774968f50499757c1423bd95d033ea08e","",NA
"30",2021-01-22 09:27:19,2021-01-22 09:29:40,"IP Address","74.97.181.123",100,141,TRUE,2021-01-22 09:29:40,"R_DAdT5WfvTGQilLb",NA,NA,NA,NA,41.6528015136719,-71.4697036743164,"anonymous","EN",NA,NA,NA,NA,NA,NA,NA,NA,NA,NA,NA,NA,NA,NA,NA,"Informed Consent","html.Page","1","form submission",5342.65599998383,2441.15500000771,2437.878,2454.859,7797.51499998383,7797.70499991719,"2021-01-22T16:27:28.031Z",7802.82,NA,"","","","",NA,"","","","",NA,"","","","",NA,NA,NA,NA,NA,NA,NA,NA,NA,NA,NA,NA,NA,NA,NA,NA,NA,NA,NA,"",NA
"31",2021-01-22 09:27:19,2021-01-22 09:29:40,"IP Address","74.97.181.123",100,141,TRUE,2021-01-22 09:29:40,"R_DAdT5WfvTGQilLb",NA,NA,NA,NA,41.6528015136719,-71.4697036743164,"anonymous","EN",NA,NA,NA,NA,NA,NA,NA,NA,NA,NA,NA,NA,NA,NA,NA,"Verification","html.Page","2","form submission",4201.78999994539,7797.84999997355,7786.299,7802.82,12004.6099999454,12004.9349999754,"2021-01-22T16:27:32.239Z",12018.124,"0001","","","","",NA,"","","","",NA,"","","","",NA,NA,NA,NA,NA,NA,NA,NA,NA,NA,NA,NA,NA,NA,NA,NA,NA,NA,NA,"",NA
"32",2021-01-22 09:27:19,2021-01-22 09:29:40,"IP Address","74.97.181.123",100,141,TRUE,2021-01-22 09:29:40,"R_DAdT5WfvTGQilLb",NA,NA,NA,NA,41.6528015136719,-71.4697036743164,"anonymous","EN",NA,NA,NA,NA,NA,NA,NA,NA,NA,NA,NA,NA,NA,NA,NA,"rotary","html.Page","3_0","response",52701.2609999458,12005.2750000032,12001.473,12018.124,64719.3849999458,64723.0399999535,"2021-01-22T16:28:24.957Z",64733.905,NA,"","","","","yes,yes,yes,yes,yes,yes,yes,yes,","","","","",NA,"","","","","continue","click button",NA,NA,NA,NA,NA,NA,NA,NA,NA,NA,NA,NA,NA,NA,NA,NA,NA,"",NA
"33",2021-01-22 09:27:19,2021-01-22 09:29:40,"IP Address","74.97.181.123",100,141,TRUE,2021-01-22 09:29:40,"R_DAdT5WfvTGQilLb",NA,NA,NA,NA,41.6528015136719,-71.4697036743164,"anonymous","EN",NA,NA,NA,NA,NA,NA,NA,NA,NA,NA,NA,NA,NA,NA,NA,"horizontal","html.Page","3_1","response",38991.1300000104,64731.8700000178,64717.261,64733.905,103725.03500001,103725.914999959,"2021-01-22T16:29:03.960Z",103737.467,NA,"","","","","yes,yes,yes,yes,yes,yes,yes,yes,","","","","",NA,"","","","","continue","click button",NA,NA,NA,NA,NA,NA,NA,NA,NA,NA,NA,NA,NA,NA,NA,NA,NA,"",NA
"34",2021-01-22 09:27:19,2021-01-22 09:29:40,"IP Address","74.97.181.123",100,141,TRUE,2021-01-22 09:29:40,"R_DAdT5WfvTGQilLb",NA,NA,NA,NA,41.6528015136719,-71.4697036743164,"anonymous","EN",NA,NA,NA,NA,NA,NA,NA,NA,NA,NA,NA,NA,NA,NA,NA,"3x3","html.Page","3_2","form submission",30308.682999951,103727.605000022,103721.014,103737.467,134046.149999951,134046.800000011,"2021-01-22T16:29:34.281Z",134077.411,NA,"","","","","yes,yes,yes,yes,yes,yes,yes,yes,","","","","",NA,"","","","",NA,NA,NA,NA,NA,NA,NA,NA,NA,NA,NA,NA,NA,NA,NA,NA,NA,NA,NA,"",""
"35",2021-01-22 09:27:19,2021-01-22 09:29:40,"IP Address","74.97.181.123",100,141,TRUE,2021-01-22 09:29:40,"R_DAdT5WfvTGQilLb",NA,NA,NA,NA,41.6528015136719,-71.4697036743164,"anonymous","EN",NA,NA,NA,NA,NA,NA,NA,NA,NA,NA,NA,NA,NA,NA,NA,"Randomize","flow.Sequence","3","completion",122028.025999951,12005.1649999805,12001.473,12018.124,134046.149999951,134047.664999962,"2021-01-22T16:29:34.282Z",134077.411,NA,"","","","",NA,"","","","",NA,"","","","",NA,NA,NA,NA,NA,NA,NA,NA,NA,NA,NA,NA,NA,NA,NA,NA,NA,NA,NA,"",NA
"36",2021-01-22 09:27:19,2021-01-22 09:29:40,"IP Address","74.97.181.123",100,141,TRUE,2021-01-22 09:29:40,"R_DAdT5WfvTGQilLb",NA,NA,NA,NA,41.6528015136719,-71.4697036743164,"anonymous","EN",NA,NA,NA,NA,NA,NA,NA,NA,NA,NA,NA,NA,NA,NA,NA,"root","flow.Sequence",NA,"completion",133474.344999951,555.775000015274,555.21,571.805,134046.149999951,134047.934999922,"2021-01-22T16:29:34.282Z",134077.411,NA,"","","","",NA,"","","","",NA,"","","","",NA,NA,NA,NA,NA,NA,NA,NA,NA,NA,NA,NA,NA,NA,NA,NA,NA,NA,NA,"",NA
"37",2021-02-04 07:19:02,2021-02-04 07:23:06,"IP Address","70.184.14.160",100,243,TRUE,2021-02-04 07:23:07,"R_3I0OTT1Qwbug1eh",NA,NA,NA,NA,41.7689056396484,-71.4757995605469,"anonymous","EN","1 to 3 years","Every day or more","Moderately liked","Slightly Liked","Neither liked nor disliked",NA,NA,NA,"3x3 layout","40-49","Man",NA,NA,NA,NA,"Intro","html.Page","0","form submission",1382.23199999926,1123.58500000119,1095.57,1112.253,2494.48499999926,2494.96999999974,"2021-02-04T14:19:04.122Z",2496.942,NA,"","","","",NA,"","","","",NA,"","","","",NA,NA,"20.1.1","https://goofy-beaver-0812ce.netlify.app/","Mozilla/5.0 (Macintosh; Intel Mac OS X 11_2_0) AppleWebKit/537.36 (KHTML, like Gecko) Chrome/88.0.4324.96 Safari/537.36","MacIntel","en-US","en-US","America/New_York",300,1920,1080,1440,748,1440,796,1,"production","cd5695f774968f50499757c1423bd95d033ea08e","",NA
"38",2021-02-04 07:19:02,2021-02-04 07:23:06,"IP Address","70.184.14.160",100,243,TRUE,2021-02-04 07:23:07,"R_3I0OTT1Qwbug1eh",NA,NA,NA,NA,41.7689056396484,-71.4757995605469,"anonymous","EN","1 to 3 years","Every day or more","Moderately liked","Slightly Liked","Neither liked nor disliked",NA,NA,NA,"3x3 layout","40-49","Man",NA,NA,NA,NA,"Informed Consent","html.Page","1","form submission",23768.898,2495.30500000037,2480.259,2496.942,26265.84,26266.1399999997,"2021-02-04T14:19:27.893Z",26282.407,NA,"","","","",NA,"","","","",NA,"","","","",NA,NA,NA,NA,NA,NA,NA,NA,NA,NA,NA,NA,NA,NA,NA,NA,NA,NA,NA,"",NA
"39",2021-02-04 07:19:02,2021-02-04 07:23:06,"IP Address","70.184.14.160",100,243,TRUE,2021-02-04 07:23:07,"R_3I0OTT1Qwbug1eh",NA,NA,NA,NA,41.7689056396484,-71.4757995605469,"anonymous","EN","1 to 3 years","Every day or more","Moderately liked","Slightly Liked","Neither liked nor disliked",NA,NA,NA,"3x3 layout","40-49","Man",NA,NA,NA,NA,"Verification","html.Page","2","form submission",6858.66799999955,26266.3099999991,26265.724,26282.407,33141.0749999995,33141.3099999991,"2021-02-04T14:19:34.768Z",33145.827,"0001","","","","",NA,"","","","",NA,"","","","",NA,NA,NA,NA,NA,NA,NA,NA,NA,NA,NA,NA,NA,NA,NA,NA,NA,NA,NA,"",NA
"40",2021-02-04 07:19:02,2021-02-04 07:23:06,"IP Address","70.184.14.160",100,243,TRUE,2021-02-04 07:23:07,"R_3I0OTT1Qwbug1eh",NA,NA,NA,NA,41.7689056396484,-71.4757995605469,"anonymous","EN","1 to 3 years","Every day or more","Moderately liked","Slightly Liked","Neither liked nor disliked",NA,NA,NA,"3x3 layout","40-49","Man",NA,NA,NA,NA,"horizontal","html.Page","3_0","response",81189.0879999995,33141.5249999991,33129.144,33145.827,114334.914999999,114338.019999999,"2021-02-04T14:20:55.964Z",114337.19,NA,"","","","","yes,no,yes,yes,yes,no,yes,yes,yes,yes,","","","","",NA,"","","","","continue","click button",NA,NA,NA,NA,NA,NA,NA,NA,NA,NA,NA,NA,NA,NA,NA,NA,NA,"",NA
"41",2021-02-04 07:19:02,2021-02-04 07:23:06,"IP Address","70.184.14.160",100,243,TRUE,2021-02-04 07:23:07,"R_3I0OTT1Qwbug1eh",NA,NA,NA,NA,41.7689056396484,-71.4757995605469,"anonymous","EN","1 to 3 years","Every day or more","Moderately liked","Slightly Liked","Neither liked nor disliked",NA,NA,NA,"3x3 layout","40-49","Man",NA,NA,NA,NA,"3x3","html.Page","3_1","form submission",42311.2000000021,114343.140000001,114320.507,114337.19,156648.390000002,156649.314999999,"2021-02-04T14:21:38.275Z",156656.186,NA,"","","","","yes,yes,yes,yes,no,yes,yes,yes,yes,","","","","",NA,"","","","",NA,NA,NA,NA,NA,NA,NA,NA,NA,NA,NA,NA,NA,NA,NA,NA,NA,NA,NA,"",""
"42",2021-02-04 07:19:02,2021-02-04 07:23:06,"IP Address","70.184.14.160",100,243,TRUE,2021-02-04 07:23:07,"R_3I0OTT1Qwbug1eh",NA,NA,NA,NA,41.7689056396484,-71.4757995605469,"anonymous","EN","1 to 3 years","Every day or more","Moderately liked","Slightly Liked","Neither liked nor disliked",NA,NA,NA,"3x3 layout","40-49","Man",NA,NA,NA,NA,"rotary","html.Page","3_2","response",37883.3039999992,156650.675000001,156639.503,156656.186,194539.489999999,194540.639999999,"2021-02-04T14:22:16.167Z",194553.017,NA,"","","","","yes,yes,yes,yes,yes,yes,yes,yes,","","","","",NA,"","","","","continue","click button",NA,NA,NA,NA,NA,NA,NA,NA,NA,NA,NA,NA,NA,NA,NA,NA,NA,"",NA
"43",2021-02-04 07:19:02,2021-02-04 07:23:06,"IP Address","70.184.14.160",100,243,TRUE,2021-02-04 07:23:07,"R_3I0OTT1Qwbug1eh",NA,NA,NA,NA,41.7689056396484,-71.4757995605469,"anonymous","EN","1 to 3 years","Every day or more","Moderately liked","Slightly Liked","Neither liked nor disliked",NA,NA,NA,"3x3 layout","40-49","Man",NA,NA,NA,NA,"Randomize","flow.Sequence","3","completion",161393.662999999,33141.4650000006,33129.144,33145.827,194539.489999999,194545.975000001,"2021-02-04T14:22:16.172Z",194553.017,NA,"","","","",NA,"","","","",NA,"","","","",NA,NA,NA,NA,NA,NA,NA,NA,NA,NA,NA,NA,NA,NA,NA,NA,NA,NA,NA,"",NA
"44",2021-02-04 07:19:02,2021-02-04 07:23:06,"IP Address","70.184.14.160",100,243,TRUE,2021-02-04 07:23:07,"R_3I0OTT1Qwbug1eh",NA,NA,NA,NA,41.7689056396484,-71.4757995605469,"anonymous","EN","1 to 3 years","Every day or more","Moderately liked","Slightly Liked","Neither liked nor disliked",NA,NA,NA,"3x3 layout","40-49","Man",NA,NA,NA,NA,"root","flow.Sequence",NA,"completion",193427.236999999,1123.41000000015,1095.57,1112.253,194539.489999999,194546.174999999,"2021-02-04T14:22:16.172Z",194553.017,NA,"","","","",NA,"","","","",NA,"","","","",NA,NA,NA,NA,NA,NA,NA,NA,NA,NA,NA,NA,NA,NA,NA,NA,NA,NA,NA,"",NA
